Condition,Trial,Stim_place,Stimuli_file,Condition_1.thisRepN,Condition_1.thisTrialN,Condition_1.thisN,Condition_1.thisIndex,Second_Condition.thisRepN,Second_Condition.thisTrialN,Second_Condition.thisN,Second_Condition.thisIndex,text.started,text.stopped,key_resp.keys,key_resp.rt,key_resp.started,key_resp.stopped,text_3.started,text_3.stopped,image.started,image.stopped,key_resp_2.keys,key_resp_2.started,key_resp_2.stopped,key_resp_2.rt,text_2.started,text_2.stopped,key_resp_3.keys,key_resp_3.rt,key_resp_3.started,key_resp_3.stopped,participant,session,date,expName,psychopyVersion,frameRate,
,,,,,,,,,,,,22.01875240006484,None,y,110.528010699898,22.01875240006484,None,,,,,,,,,,,,,,,T2,001,2021_Dec_01_1428,Circle_SDT,2021.2.3,59.91256359453188,
Still,no-go,"(0, 0)",grey_square.png,0,0,0,19,,,,,,,,,,,133.08115980005823,134.0811829001177,134.5865696000401,134.84775030007586,None,134.5865696000401,None,,,,,,,,T2,001,2021_Dec_01_1428,Circle_SDT,2021.2.3,59.91256359453188,
Still,no-go,"(0, 0)",grey_square.png,0,1,1,22,,,,,,,,,,,136.56452229991555,137.56460330006666,138.06453679990955,138.314847700065,None,138.06453679990955,None,,,,,,,,T2,001,2021_Dec_01_1428,Circle_SDT,2021.2.3,59.91256359453188,
Still,go,"(0, 0)",grey_circle.png,0,2,2,1,,,,,,,,,,,140.04799559991807,141.04785989993252,141.54768369998783,141.79788290010765,space,141.54768369998783,139.56436139997095,0.3106932998634875,,,,,,,T2,001,2021_Dec_01_1428,Circle_SDT,2021.2.3,59.91256359453188,
Still,go,"(0, 0)",grey_circle.png,0,3,3,12,,,,,,,,,,,142.38145529991016,143.3811957000289,143.8812855000142,144.13097640010528,space,143.8812855000142,None,0.37718529999256134,,,,,,,T2,001,2021_Dec_01_1428,Circle_SDT,2021.2.3,59.91256359453188,
Still,go,"(0, 0)",grey_circle.png,0,4,4,6,,,,,,,,,,,144.7808715000283,145.78130430006422,146.28119209990837,146.53117009997368,space,146.28119209990837,None,0.26561819994822145,,,,,,,T2,001,2021_Dec_01_1428,Circle_SDT,2021.2.3,59.91256359453188,
Still,no-go,"(0, 0)",grey_square.png,0,5,5,30,,,,,,,,,,,147.0645401000511,148.0645582000725,148.56464269990101,148.81435259990394,space,148.56464269990101,None,0.2857675999403,,,,,,,T2,001,2021_Dec_01_1428,Circle_SDT,2021.2.3,59.91256359453188,
Still,no-go,"(0, 0)",grey_square.png,0,6,6,17,,,,,,,,,,,149.38119759992696,150.38109329994768,150.88123539998196,151.13147170003504,None,150.88123539998196,None,,,,,,,,T2,001,2021_Dec_01_1428,Circle_SDT,2021.2.3,59.91256359453188,
Still,no-go,"(0, 0)",grey_square.png,0,7,7,18,,,,,,,,,,,152.86452549998648,153.86456150002778,154.3644868999254,154.6145661000628,None,154.3644868999254,152.38072960008867,,,,,,,,T2,001,2021_Dec_01_1428,Circle_SDT,2021.2.3,59.91256359453188,
Still,no-go,"(0, 0)",grey_square.png,0,8,8,23,,,,,,,,,,,156.34789590002038,157.34778710012324,157.84791360003874,158.09799939999357,None,157.84791360003874,155.86434630001895,,,,,,,,T2,001,2021_Dec_01_1428,Circle_SDT,2021.2.3,59.91256359453188,
Still,go,"(0, 0)",grey_circle.png,0,9,9,0,,,,,,,,,,,159.83120270003565,160.83122940012254,161.33122029993683,161.5813154000789,space,161.33122029993683,159.3474071000237,0.28725480008870363,,,,,,,T2,001,2021_Dec_01_1428,Circle_SDT,2021.2.3,59.91256359453188,
Still,go,"(0, 0)",grey_circle.png,0,10,10,15,,,,,,,,,,,162.14796549989842,163.1479162001051,163.6480179000646,163.89788169995882,space,163.6480179000646,None,0.3543972000479698,,,,,,,T2,001,2021_Dec_01_1428,Circle_SDT,2021.2.3,59.91256359453188,
Still,go,"(0, 0)",grey_circle.png,0,11,11,11,,,,,,,,,,,164.53125070012175,165.53122689994052,166.03124599996954,166.28144189994782,space,166.03124599996954,None,0.3231583000160754,,,,,,,T2,001,2021_Dec_01_1428,Circle_SDT,2021.2.3,59.91256359453188,
Still,go,"(0, 0)",grey_circle.png,0,12,12,3,,,,,,,,,,,166.88128000008874,167.8814234000165,168.38134610000998,168.63120650011115,space,168.38134610000998,None,0.35689779999665916,,,,,,,T2,001,2021_Dec_01_1428,Circle_SDT,2021.2.3,59.91256359453188,
Still,no-go,"(0, 0)",grey_square.png,0,13,13,28,,,,,,,,,,,169.2472884999588,170.24795099999756,170.74791679996997,170.9981394999195,None,170.74791679996997,None,,,,,,,,T2,001,2021_Dec_01_1428,Circle_SDT,2021.2.3,59.91256359453188,
Still,no-go,"(0, 0)",grey_square.png,0,14,14,26,,,,,,,,,,,172.7312509000767,173.73125079995953,174.23125570011325,174.48109170002863,None,174.23125570011325,172.2475922999438,,,,,,,,T2,001,2021_Dec_01_1428,Circle_SDT,2021.2.3,59.91256359453188,
Still,go,"(0, 0)",grey_circle.png,0,15,15,10,,,,,,,,,,,176.21472569997422,177.21459369990043,177.7147321999073,177.9646195000969,space,177.7147321999073,175.73072859994136,0.30369299999438226,,,,,,,T2,001,2021_Dec_01_1428,Circle_SDT,2021.2.3,59.91256359453188,
Still,go,"(0, 0)",grey_circle.png,0,16,16,4,,,,,,,,,,,178.54776079999283,179.54786189994775,180.04734409996308,180.29785580001771,space,180.04734409996308,None,0.3871654001995921,,,,,,,T2,001,2021_Dec_01_1428,Circle_SDT,2021.2.3,59.91256359453188,
Still,go,"(0, 0)",grey_circle.png,0,17,17,7,,,,,,,,,,,180.96461070002988,181.96461379993707,182.46475509996526,182.71453260001726,space,182.46475509996526,None,0.30589079996570945,,,,,,,T2,001,2021_Dec_01_1428,Circle_SDT,2021.2.3,59.91256359453188,
Still,no-go,"(0, 0)",grey_square.png,0,18,18,21,,,,,,,,,,,183.29806760000065,184.2979568000883,184.7980593999382,185.04814759991132,None,184.7980593999382,None,,,,,,,,T2,001,2021_Dec_01_1428,Circle_SDT,2021.2.3,59.91256359453188,
Still,no-go,"(0, 0)",grey_square.png,0,19,19,25,,,,,,,,,,,186.7813707999885,187.78128789993934,188.28121910011396,188.53132049995475,None,188.28121910011396,186.29715629993007,,,,,,,,T2,001,2021_Dec_01_1428,Circle_SDT,2021.2.3,59.91256359453188,
Still,no-go,"(0, 0)",grey_square.png,0,20,20,27,,,,,,,,,,,190.28139219991863,191.28136679995805,191.7814195000101,192.03139550006017,None,191.7814195000101,189.78224979992956,,,,,,,,T2,001,2021_Dec_01_1428,Circle_SDT,2021.2.3,59.91256359453188,
Still,no-go,"(0, 0)",grey_square.png,0,21,21,20,,,,,,,,,,,193.76456149993464,194.7646419000812,195.26467279996723,195.51474049990065,None,195.26467279996723,193.28073989995755,,,,,,,,T2,001,2021_Dec_01_1428,Circle_SDT,2021.2.3,59.91256359453188,
Still,no-go,"(0, 0)",grey_square.png,0,22,22,24,,,,,,,,,,,197.24792429991066,198.24800790008157,198.74806870007887,198.99827360012569,None,198.74806870007887,196.7639826000668,,,,,,,,T2,001,2021_Dec_01_1428,Circle_SDT,2021.2.3,59.91256359453188,
Still,no-go,"(0, 0)",grey_square.png,0,23,23,29,,,,,,,,,,,200.7311523000244,201.73130300012417,202.23140679998323,202.4815994000528,None,202.23140679998323,200.24764099996537,,,,,,,,T2,001,2021_Dec_01_1428,Circle_SDT,2021.2.3,59.91256359453188,
Still,go,"(0, 0)",grey_circle.png,0,24,24,9,,,,,,,,,,,204.21404190012254,205.21467459993437,205.7146980999969,205.96487320004962,space,205.7146980999969,203.73082799999975,0.33582769986242056,,,,,,,T2,001,2021_Dec_01_1428,Circle_SDT,2021.2.3,59.91256359453188,
Still,go,"(0, 0)",grey_circle.png,0,25,25,8,,,,,,,,,,,206.5814336000476,207.5810477999039,208.0814255999867,208.33129530004226,space,208.0814255999867,None,0.30541209992952645,,,,,,,T2,001,2021_Dec_01_1428,Circle_SDT,2021.2.3,59.91256359453188,
Still,go,"(0, 0)",grey_circle.png,0,26,26,2,,,,,,,,,,,208.91478549991734,209.91462139994837,210.41491520009004,210.66495430003852,space,210.41491520009004,None,0.25970619986765087,,,,,,,T2,001,2021_Dec_01_1428,Circle_SDT,2021.2.3,59.91256359453188,
Still,no-go,"(0, 0)",grey_square.png,0,27,27,31,,,,,,,,,,,211.19802069989964,212.19803979992867,212.69811869994737,212.94794160011224,space,212.69811869994737,None,0.2487846000585705,,,,,,,T2,001,2021_Dec_01_1428,Circle_SDT,2021.2.3,59.91256359453188,
Still,go,"(0, 0)",grey_circle.png,0,28,28,13,,,,,,,,,,,213.46470599994063,214.46466850000434,214.96473450004123,215.2146940000821,space,214.96473450004123,None,0.2856556000187993,,,,,,,T2,001,2021_Dec_01_1428,Circle_SDT,2021.2.3,59.91256359453188,
Still,go,"(0, 0)",grey_circle.png,0,29,29,5,,,,,,,,,,,215.7645918999333,216.76470410008915,217.26470350008458,217.5146910001058,space,217.26470350008458,None,0.2897113000508398,,,,,,,T2,001,2021_Dec_01_1428,Circle_SDT,2021.2.3,59.91256359453188,
Still,go,"(0, 0)",grey_circle.png,0,30,30,14,,,,,,,,,,,218.08119100006297,219.08146660006605,219.58137660007924,219.83158609992824,space,219.58137660007924,None,0.26124710007570684,,,,,,,T2,001,2021_Dec_01_1428,Circle_SDT,2021.2.3,59.91256359453188,
Still,no-go,"(0, 0)",grey_square.png,0,31,31,16,,,,,,,,,,,220.34795799991116,221.3480529000517,221.84820810006931,222.09831480006687,None,221.84820810006931,None,,,,,,,,T2,001,2021_Dec_01_1428,Circle_SDT,2021.2.3,59.91256359453188,
,,,,,,,,,,,,,,,,,,,,,,,,,,223.348547300091,None,y,7.5501246999483556,223.348547300091,None,T2,001,2021_Dec_01_1428,Circle_SDT,2021.2.3,59.91256359453188,
Move,go,"(0.8, 0.4)",grey_circle.png,,,,,0,0,0,10,,,,,,,231.43140010000207,232.431390899932,232.93142180005088,233.1816668000538,space,232.93142180005088,None,0.35107430000789464,,,,,,,T2,001,2021_Dec_01_1428,Circle_SDT,2021.2.3,59.91256359453188,
Move,go,"(0.8, 0.4)",grey_circle.png,,,,,0,1,1,9,,,,,,,233.79807789996266,234.79798440006562,235.29806699999608,235.54808109998703,space,235.29806699999608,None,0.3685055000241846,,,,,,,T2,001,2021_Dec_01_1428,Circle_SDT,2021.2.3,59.91256359453188,
Move,no-go,"(-0.8, 0.4)",grey_square.png,,,,,0,2,2,20,,,,,,,236.18141210009344,237.18149830005132,237.681409599958,237.93150720000267,None,237.681409599958,None,,,,,,,,T2,001,2021_Dec_01_1428,Circle_SDT,2021.2.3,59.91256359453188,
Move,no-go,"(-0.8, 0.4)",grey_square.png,,,,,0,3,3,22,,,,,,,239.66459490009584,240.66458910005167,241.16490949993022,241.41501690004952,space,241.16490949993022,239.1819470000919,0.38956099981442094,,,,,,,T2,001,2021_Dec_01_1428,Circle_SDT,2021.2.3,59.91256359453188,
Move,no-go,"(0.8, 0.4)",grey_square.png,,,,,0,4,4,27,,,,,,,242.08148519997485,243.0815107000526,243.58167820004746,243.83133670012467,None,243.58167820004746,None,,,,,,,,T2,001,2021_Dec_01_1428,Circle_SDT,2021.2.3,59.91256359453188,
Move,go,"(0.8, 0.4)",grey_circle.png,,,,,0,5,5,8,,,,,,,245.5647998000495,246.56491580000147,247.0648280000314,247.3151169999037,space,247.0648280000314,245.0811731000431,0.5056525999680161,,,,,,,T2,001,2021_Dec_01_1428,Circle_SDT,2021.2.3,59.91256359453188,
Move,go,"(0.8, 0.4)",grey_circle.png,,,,,0,6,6,11,,,,,,,248.09819609997794,249.0980817999225,249.5980291001033,249.84837780008093,space,249.5980291001033,None,0.37263579992577434,,,,,,,T2,001,2021_Dec_01_1428,Circle_SDT,2021.2.3,59.91256359453188,
Move,go,"(-0.8, 0.4)",grey_circle.png,,,,,0,7,7,4,,,,,,,250.4982809999492,251.49809230002575,251.99821310001425,252.24814840010367,space,251.99821310001425,None,0.3725000999402255,,,,,,,T2,001,2021_Dec_01_1428,Circle_SDT,2021.2.3,59.91256359453188,
Move,go,"(-0.8, 0.4)",grey_circle.png,,,,,0,8,8,7,,,,,,,252.89803760009818,253.89809320005588,254.39807779993862,254.64814319997095,space,254.39807779993862,None,0.35641259979456663,,,,,,,T2,001,2021_Dec_01_1428,Circle_SDT,2021.2.3,59.91256359453188,
Move,no-go,"(0.8, -0.4)",grey_square.png,,,,,0,9,9,28,,,,,,,255.28138369997032,256.28147629997693,256.78147809999064,257.03163169999607,None,256.78147809999064,None,,,,,,,,T2,001,2021_Dec_01_1428,Circle_SDT,2021.2.3,59.91256359453188,
Move,no-go,"(0.8, 0.4)",grey_square.png,,,,,0,10,10,26,,,,,,,258.76441249996424,259.76472859992646,260.26476619997993,260.5149012999609,None,260.26476619997993,258.28096290002577,,,,,,,,T2,001,2021_Dec_01_1428,Circle_SDT,2021.2.3,59.91256359453188,
Move,go,"(0.8, -0.4)",grey_circle.png,,,,,0,11,11,15,,,,,,,262.2481414999347,263.2483137000818,263.74811340007,263.99802760011517,space,263.74811340007,261.76460009999573,0.4304210999980569,,,,,,,T2,001,2021_Dec_01_1428,Circle_SDT,2021.2.3,59.91256359453188,
Move,no-go,"(0.8, 0.4)",grey_square.png,,,,,0,12,12,25,,,,,,,264.6983324000612,265.6975100999698,266.1983016000595,266.4475881999824,None,266.1983016000595,None,,,,,,,,T2,001,2021_Dec_01_1428,Circle_SDT,2021.2.3,59.91256359453188,
Move,go,"(-0.8, -0.4)",grey_circle.png,,,,,0,13,13,0,,,,,,,268.1814153001178,269.18142320006154,269.6814288001042,269.93164819991216,space,269.6814288001042,267.69753040000796,0.3692999999038875,,,,,,,T2,001,2021_Dec_01_1428,Circle_SDT,2021.2.3,59.91256359453188,
Move,go,"(0.8, -0.4)",grey_circle.png,,,,,0,14,14,13,,,,,,,270.5814509000629,271.5814916000236,272.0815085999202,272.3315296000801,space,272.0815085999202,None,0.3690696000121534,,,,,,,T2,001,2021_Dec_01_1428,Circle_SDT,2021.2.3,59.91256359453188,
Move,no-go,"(-0.8, -0.4)",grey_square.png,,,,,0,15,15,18,,,,,,,272.98155759996735,273.9814345999621,274.48159869993106,274.73170919995755,space,274.48159869993106,None,0.4970176999922842,,,,,,,T2,001,2021_Dec_01_1428,Circle_SDT,2021.2.3,59.91256359453188,
Move,no-go,"(0.8, -0.4)",grey_square.png,,,,,0,16,16,30,,,,,,,275.49809750006534,276.4981784000993,276.99824670003727,277.2481921999715,None,276.99824670003727,None,,,,,,,,T2,001,2021_Dec_01_1428,Circle_SDT,2021.2.3,59.91256359453188,
Move,go,"(-0.8, -0.4)",grey_circle.png,,,,,0,17,17,1,,,,,,,278.9808624999132,279.9815008000005,280.4815434999764,280.73152759997174,space,280.4815434999764,278.4979276000522,0.5129211000166833,,,,,,,T2,001,2021_Dec_01_1428,Circle_SDT,2021.2.3,59.91256359453188,
Move,no-go,"(0.8, -0.4)",grey_square.png,,,,,0,18,18,29,,,,,,,281.51486600004137,282.5147991999984,283.0149475999642,283.26484280009754,None,283.0149475999642,None,,,,,,,,T2,001,2021_Dec_01_1428,Circle_SDT,2021.2.3,59.91256359453188,
Move,no-go,"(-0.8, 0.4)",grey_square.png,,,,,0,19,19,23,,,,,,,284.99813419999555,285.9983115999494,286.49830049998127,286.7482449999079,None,286.49830049998127,284.51431909995154,,,,,,,,T2,001,2021_Dec_01_1428,Circle_SDT,2021.2.3,59.91256359453188,
Move,go,"(-0.8, -0.4)",grey_circle.png,,,,,0,20,20,2,,,,,,,288.4815509999171,289.481473099906,289.98153920006007,290.23100359993987,space,289.98153920006007,287.99795489991084,0.3251432999968529,,,,,,,T2,001,2021_Dec_01_1428,Circle_SDT,2021.2.3,59.91256359453188,
Move,no-go,"(-0.8, -0.4)",grey_square.png,,,,,0,21,21,19,,,,,,,290.8316117001232,291.83153260010295,292.33156080008484,292.58180990000255,None,292.33156080008484,None,,,,,,,,T2,001,2021_Dec_01_1428,Circle_SDT,2021.2.3,59.91256359453188,
Move,no-go,"(-0.8, -0.4)",grey_square.png,,,,,0,22,22,16,,,,,,,294.31501600006595,295.31493779993616,295.81486409995705,296.06491139996797,None,295.81486409995705,293.831316200085,,,,,,,,T2,001,2021_Dec_01_1428,Circle_SDT,2021.2.3,59.91256359453188,
Move,go,"(-0.8, -0.4)",grey_circle.png,,,,,0,23,23,3,,,,,,,297.79810869996436,298.79821070004255,299.2980696999002,299.54827930009924,space,299.2980696999002,297.31471839989536,0.3844793001189828,,,,,,,T2,001,2021_Dec_01_1428,Circle_SDT,2021.2.3,59.91256359453188,
Move,go,"(0.8, -0.4)",grey_circle.png,,,,,0,24,24,12,,,,,,,300.19804170005955,301.1983582000248,301.69806879991665,301.9482921999879,space,301.69806879991665,None,0.41672269999980927,,,,,,,T2,001,2021_Dec_01_1428,Circle_SDT,2021.2.3,59.91256359453188,
Move,go,"(-0.8, 0.4)",grey_circle.png,,,,,0,25,25,6,,,,,,,302.6148431999609,303.6149226000998,304.1142838001251,304.36488140001893,space,304.1142838001251,None,0.36829920019954443,,,,,,,T2,001,2021_Dec_01_1428,Circle_SDT,2021.2.3,59.91256359453188,
Move,no-go,"(-0.8, 0.4)",grey_square.png,,,,,0,26,26,21,,,,,,,304.99833109998144,305.99839470000006,306.498187399935,306.74815379991196,None,306.498187399935,None,,,,,,,,T2,001,2021_Dec_01_1428,Circle_SDT,2021.2.3,59.91256359453188,
Move,go,"(-0.8, 0.4)",grey_circle.png,,,,,0,27,27,5,,,,,,,308.48150460002944,309.48159460001625,309.98153220000677,310.23103179992177,space,309.98153220000677,307.99797839997336,0.4531986000947654,,,,,,,T2,001,2021_Dec_01_1428,Circle_SDT,2021.2.3,59.91256359453188,
Move,no-go,"(-0.8, -0.4)",grey_square.png,,,,,0,28,28,17,,,,,,,310.96488710003905,311.96482319990173,312.4648720000405,312.71487880009227,None,312.4648720000405,None,,,,,,,,T2,001,2021_Dec_01_1428,Circle_SDT,2021.2.3,59.91256359453188,
Move,no-go,"(0.8, 0.4)",grey_square.png,,,,,0,29,29,24,,,,,,,314.44822919997387,315.448286900064,315.94824140006676,316.1983940000646,None,315.94824140006676,313.9642888000235,,,,,,,,T2,001,2021_Dec_01_1428,Circle_SDT,2021.2.3,59.91256359453188,
Move,no-go,"(0.8, -0.4)",grey_square.png,,,,,0,30,30,31,,,,,,,317.93164149997756,318.93164149997756,319.43161750002764,319.6819048000034,None,319.43161750002764,317.447795700049,,,,,,,,T2,001,2021_Dec_01_1428,Circle_SDT,2021.2.3,59.91256359453188,
Move,go,"(0.8, -0.4)",grey_circle.png,,,,,0,31,31,14,,,,,,,321.4148977000732,322.41479640011676,322.9149865000509,323.16505330009386,space,322.9149865000509,320.93145649996586,0.3675921999383718,,,,,,,T2,001,2021_Dec_01_1428,Circle_SDT,2021.2.3,59.91256359453188,
